Data from 2938487_Reflection_4.txt Node
Date: Wed Jun 17 00:55:46 EDT 2015
User: robert
Spectrometer: USB4E03002
Autoset integration time: false
Trigger mode: 4
Integration Time (sec): 1.000000E-1
Scans to average: 10
Electric dark correction enabled: true
Nonlinearity correction enabled: false
Boxcar width: 5
Stray light correction enabled: false
XAxis mode: Wavelengths
Stop averaging: false
Number of Pixels in Spectrum: 3648
>>>>>Begin Spectral Data<<<<<
177.575	-401.67
177.794	1763.76
178.014	-103.75
178.233	-99.71
178.452	-30.59
178.672	-25.33
178.891	-4.25
179.11	107.58
179.33	85.25
179.549	117.42
179.768	30.61
179.987	67.34
180.207	84.1
180.426	100.96
180.645	151.72
180.864	231.95
181.084	98.7
181.303	115.85
181.522	41.14
181.741	67.24
181.96	69.23
182.179	748.29
182.398	-3152.67
182.618	-251.82
182.837	-282.55
183.056	-317.92
183.275	-427.57
183.494	-245.82
183.713	-765
183.932	-460.77
184.151	226.5
184.37	1794.19
184.589	6770.42
184.808	-854.49
185.027	-314.91
185.246	832.14
185.465	118.58
185.684	-50.79
185.903	-29.03
186.122	3.27
186.341	-12
186.56	23.77
186.779	39.12
186.998	16.1
187.216	-61.28
187.435	-5.48
187.654	51.11
187.873	-49.03
188.092	-142.55
188.311	324.71
188.53	45.48
188.748	73.93
188.967	129.47
189.186	364.79
189.405	962.92
189.623	-1516.06
189.842	335.19
190.061	898.36
190.28	27.87
190.498	-265.73
190.717	-85.83
190.936	84.84
191.154	62.3
191.373	-58.81
191.592	-87.38
191.81	197.23
192.029	167.49
192.248	373.88
192.466	253.04
192.685	418.42
192.904	2392.74
193.122	448.8
193.341	3.26
193.559	-46.91
193.778	-230.99
193.996	-54.89
194.215	-10.46
194.433	33.49
194.652	68.17
194.87	66.04
195.089	132.54
195.307	366.46
195.526	-1493.85
195.744	-112.95
195.963	-35.51
196.181	-74.65
196.399	-9.18
196.618	-25.45
196.836	40.06
197.055	9.72
197.273	-10.85
197.491	5.01
197.71	5.24
197.928	139.21
198.146	-415.07
198.365	-67.84
198.583	275.7
198.801	-189.78
199.019	-195.44
199.238	494.83
199.456	-3372.22
199.674	-331.74
199.892	40.34
200.111	-34.18
200.329	31.73
200.547	68.8
200.765	41.51
200.983	-117.05
201.202	2.74
201.42	-66.08
201.638	-6834.38
201.856	19.07
202.074	34.1
202.292	34.8
202.51	79.27
202.728	44.88
202.946	324.15
203.165	-1026.43
203.383	-160.98
203.601	-497.68
203.819	-142.55
204.037	-2.92
204.255	-80.61
204.473	-0.81
204.691	-15.19
204.909	-16.76
205.127	-360.24
205.345	695.47
205.562	3809.93
205.78	320.64
205.998	919.89
206.216	1190.45
206.434	427.67
206.652	291.38
206.87	169.99
207.088	195.32
207.306	287.71
207.523	316.88
207.741	-673.76
207.959	264.95
208.177	-1397.4
208.395	-1937.35
208.612	3090.65
208.83	-94.34
209.048	-40.82
209.266	-29.7
209.483	1.31
209.701	-75.56
209.919	41.59
210.136	35.02
210.354	43.19
210.572	65.69
210.79	37.61
211.007	26
211.225	4.03
211.442	-1.75
211.66	11.05
211.878	4.71
212.095	81.69
212.313	52.17
212.53	58.32
212.748	44.81
212.966	53.37
213.183	64.99
213.401	67.83
213.618	92.71
213.836	83.87
214.053	87.62
214.271	98.27
214.488	17.43
214.705	38.11
214.923	45.7
215.14	58.52
215.358	18.47
215.575	11.38
215.793	-9.01
216.01	-20.68
216.227	-39.66
216.445	-42.17
216.662	-62.84
216.879	-67.89
217.097	-57.87
217.314	-44.33
217.531	-89.42
217.749	-61.01
217.966	-30.09
218.183	-9.26
218.4	-14.12
218.618	-2.92
218.835	5.81
219.052	-6.78
219.269	-16.28
219.487	-16.37
219.704	-15.21
219.921	-18.45
220.138	-23.42
220.355	-15.79
220.572	-25.55
220.79	-24.96
221.007	-34.29
221.224	-23.91
221.441	-16.73
221.658	-10.75
221.875	-24.23
222.092	-19.39
222.309	-6.52
222.526	-2.05
222.743	-11.25
222.96	-3.15
223.177	-11.36
223.394	-4.54
223.611	-3.19
223.828	-10.14
224.045	-16.03
224.262	-6.16
224.479	-12.18
224.696	-16.58
224.913	-15.4
225.13	-15.88
225.347	-17.25
225.564	-10.25
225.781	-9.36
225.997	-7.01
226.214	-3.99
226.431	-2.55
226.648	-2.57
226.865	-3.01
227.082	-1.97
227.298	-1.88
227.515	-1.71
227.732	-1.74
227.949	-2.31
228.165	-1.94
228.382	-2.28
228.599	-3.36
228.816	-3.62
229.032	-4.15
229.249	-2.92
229.466	-5.09
229.682	-6.67
229.899	-5.92
230.116	-5.24
230.332	-3.99
230.549	-4.74
230.765	-6.06
230.982	-6.14
231.199	-8.51
231.415	-12.9
231.632	-10.8
231.848	-8.73
232.065	-3.77
232.281	-1.9
232.498	-4.89
232.714	-5.56
232.931	-5.42
233.147	-4.43
233.364	-3.59
233.58	-1.72
233.797	-0.25
234.013	-2.61
234.23	-3.32
234.446	-5.7
234.662	-8.26
234.879	-4.02
235.095	-5.87
235.312	-5.32
235.528	-4.36
235.744	-7.01
235.961	-7.44
236.177	-8.58
236.393	-9.85
236.61	-7.38
236.826	-8.64
237.042	-8.26
237.258	-9.01
237.475	-5.97
237.691	-7.61
237.907	-7.84
238.123	-5.21
238.339	-3.95
238.556	-0.01
238.772	-0.73
238.988	-1.44
239.204	-0.98
239.42	-1.42
239.636	-2.14
239.853	-3.5
240.069	-2.88
240.285	-3.22
240.501	-2.85
240.717	-3.4
240.933	-4.22
241.149	-3.57
241.365	-4.39
241.581	-4.78
241.797	-4.6
242.013	-4.28
242.229	-4.49
242.445	-4.53
242.661	-4.34
242.877	-5.06
243.093	-4.5
243.309	-4.27
243.525	-3.77
243.741	-3.23
243.957	-2.93
244.173	-3.04
244.388	-2.67
244.604	-2.07
244.82	-2.59
245.036	-2.72
245.252	-2.33
245.468	-2.1
245.683	-2.22
245.899	-2.44
246.115	-1.95
246.331	-2.32
246.547	-2.48
246.762	-2.21
246.978	-2.29
247.194	-2.09
247.409	-2.06
247.625	-2.07
247.841	-2.46
248.057	-1.53
248.272	-1.08
248.488	-1.49
248.703	-0.07
248.919	-0.37
249.135	-1.9
249.35	-1.82
249.566	-1.26
249.782	-0.65
249.997	-0.47
250.213	-0.51
250.428	-1.81
250.644	-1.86
250.859	-1.75
251.075	-2.94
251.29	-2.33
251.506	-2.15
251.721	-2.32
251.937	-2.53
252.152	-2.68
252.368	-3.58
252.583	-2.59
252.798	-1.07
253.014	-2.27
253.229	-2.52
253.445	-0.76
253.66	-1.05
253.875	-0.55
254.091	-0.6
254.306	-0.76
254.521	-1.12
254.737	-1.26
254.952	-2.26
255.167	-3.22
255.383	-3.67
255.598	-3.12
255.813	-3.19
256.028	-2.13
256.244	-1.42
256.459	-1.32
256.674	-1.45
256.889	-2.1
257.104	-2.26
257.32	-2.27
257.535	-2.76
257.75	-2.4
257.965	-2.89
258.18	-3.1
258.395	-3.44
258.61	-3.6
258.826	-3.41
259.041	-3.61
259.256	-3.28
259.471	-3.18
259.686	-3.37
259.901	-3.47
260.116	-3.53
260.331	-3.25
260.546	-3.42
260.761	-3.35
260.976	-3.48
261.191	-4.14
261.406	-3.21
261.621	-3.34
261.836	-4.41
262.05	-4.85
262.265	-4.2
262.48	-3.49
262.695	-3.34
262.91	-3.16
263.125	-3.82
263.34	-4.08
263.555	-3.7
263.769	-3.9
263.984	-4.44
264.199	-3.44
264.414	-3.18
264.629	-2.56
264.843	-3.02
265.058	-3.3
265.273	-3.18
265.488	-2.13
265.702	-1.78
265.917	-1.68
266.132	-1.86
266.346	-1.36
266.561	-0.62
266.776	-0.15
266.99	-0.83
267.205	-1.24
267.42	-1.13
267.634	-1.38
267.849	-1.59
268.063	-1.54
268.278	-1.3
268.492	-1.64
268.707	-1.72
268.922	-2.26
269.136	-2.56
269.351	-2.82
269.565	-2.34
269.78	-2.61
269.994	-1.94
270.209	-2.13
270.423	-2.45
270.637	-2.69
270.852	-2.84
271.066	-3.33
271.281	-2.59
271.495	-2.41
271.709	-2.34
271.924	-2.07
272.138	-1.66
272.353	-2.28
272.567	-2.66
272.781	-2.61
272.996	-2.5
273.21	-1.84
273.424	-1.66
273.638	-2.48
273.853	-2.52
274.067	-2.31
274.281	-2.62
274.495	-2.38
274.71	-1.82
274.924	-1.21
275.138	-0.98
275.352	-1.37
275.566	-1.96
275.781	-1.86
275.995	-1.86
276.209	-1.99
276.423	-1.97
276.637	-2.8
276.851	-3.42
277.065	-3.46
277.279	-4.1
277.493	-3.75
277.707	-3.41
277.921	-3.54
278.135	-3.72
278.349	-3.77
278.563	-3.09
278.777	-3.16
278.991	-1.93
279.205	-1.7
279.419	-2.15
279.633	-1.47
279.847	-1.85
280.061	-1.56
280.275	-0.96
280.489	-0.37
280.703	-0.57
280.917	-1.49
281.131	-1.37
281.344	-1.56
281.558	-1.64
281.772	-2.02
281.986	-2.19
282.2	-2.52
282.414	-2.64
282.627	-3.17
282.841	-3.37
283.055	-3.34
283.269	-2.88
283.482	-2.83
283.696	-3
283.91	-3.04
284.123	-2.7
284.337	-3.08
284.551	-2.87
284.764	-2.7
284.978	-2.65
285.192	-2.7
285.405	-2.76
285.619	-2.79
285.833	-2.33
286.046	-1.97
286.26	-2
286.473	-2.29
286.687	-1.95
286.9	-1.61
287.114	-1.98
287.327	-1.92
287.541	-2.11
287.754	-2.03
287.968	-2.33
288.181	-3.07
288.395	-3.76
288.608	-3.76
288.822	-2.94
289.035	-2.89
289.248	-3.44
289.462	-3.57
289.675	-3.51
289.889	-3.36
290.102	-2.96
290.315	-2.41
290.529	-2.12
290.742	-1.98
290.955	-1.73
291.169	-2.17
291.382	-2.48
291.595	-2.32
291.808	-1.95
292.022	-2.15
292.235	-2.15
292.448	-2.71
292.661	-3.31
292.875	-3.45
293.088	-3.45
293.301	-3.89
293.514	-3.85
293.727	-3.79
293.94	-4.21
294.153	-4.77
294.367	-4.14
294.58	-3.86
294.793	-3.78
295.006	-3.77
295.219	-3.92
295.432	-3.72
295.645	-3.68
295.858	-3.82
296.071	-3.85
296.284	-3.35
296.497	-3.15
296.71	-3.53
296.923	-3.6
297.136	-3.64
297.349	-3.59
297.562	-3.48
297.775	-3.6
297.988	-3.2
298.201	-3.29
298.414	-3.33
298.626	-3.08
298.839	-3.4
299.052	-3.14
299.265	-3.4
299.478	-3.51
299.691	-3.27
299.903	-3.08
300.116	-3.22
300.329	-3.22
300.542	-2.82
300.755	-2.98
300.967	-3.69
301.18	-3.18
301.393	-3.23
301.605	-3.03
301.818	-3
302.031	-3.05
302.243	-3.24
302.456	-2.78
302.669	-3.15
302.881	-3.63
303.094	-3.29
303.307	-3.35
303.519	-3.44
303.732	-4.12
303.944	-4.36
304.157	-4.02
304.37	-4.28
304.582	-3.81
304.795	-4
305.007	-3.79
305.22	-3.54
305.432	-3.39
305.645	-2.61
305.857	-2.49
306.069	-2.41
306.282	-2.54
306.494	-3.12
306.707	-3.05
306.919	-3.29
307.132	-3.21
307.344	-3.36
307.556	-3.24
307.769	-3.22
307.981	-3.71
308.193	-3.57
308.406	-2.92
308.618	-2.43
308.83	-2.29
309.043	-2.38
309.255	-2.45
309.467	-2.64
309.679	-2.8
309.892	-2.71
310.104	-2.75
310.316	-2.4
310.528	-2.49
310.74	-2.67
310.953	-2.78
311.165	-2.61
311.377	-2.77
311.589	-2.46
311.801	-2.37
312.013	-1.75
312.225	-1.75
312.437	-2.05
312.649	-2.44
312.862	-2.09
313.074	-1.99
313.286	-2.78
313.498	-2.99
313.71	-2.31
313.922	-2.7
314.134	-2.39
314.346	-2.74
314.558	-2.98
314.77	-2.96
314.982	-3.05
315.193	-3.1
315.405	-3.21
315.617	-2.47
315.829	-1.68
316.041	-1.93
316.253	-2.2
316.465	-1.2
316.677	-1.13
316.888	-0.46
317.1	-0.31
317.312	-0.44
317.524	-0.98
317.736	-1.51
317.947	-1.65
318.159	-2.13
318.371	-1.61
318.583	-1.42
318.794	-3.01
319.006	-3.23
319.218	-3.89
319.43	-3.94
319.641	-3
319.853	-2.72
320.064	-2.69
320.276	-2.71
320.488	-2.64
320.699	-3.49
320.911	-3.61
321.123	-3.5
321.334	-3.64
321.546	-4.01
321.757	-3.97
321.969	-4.53
322.18	-4.5
322.392	-3.86
322.603	-3.61
322.815	-3.44
323.026	-3.26
323.238	-2.92
323.449	-2.97
323.661	-2.43
323.872	-2.14
324.083	-1.7
324.295	-1.29
324.506	-1.49
324.718	-1.99
324.929	-2.57
325.14	-2.91
325.352	-2.85
325.563	-2.81
325.774	-2.68
325.986	-2.41
326.197	-2.42
326.408	-3.12
326.62	-2.91
326.831	-2.9
327.042	-2.43
327.253	-1.73
327.464	-1.3
327.676	-1.16
327.887	-1.5
328.098	-1.26
328.309	-1.61
328.52	-2.18
328.732	-1.51
328.943	-2.07
329.154	-1.99
329.365	-2.05
329.576	-2.31
329.787	-2.6
329.998	-2.29
330.209	-2.22
330.42	-1.58
330.631	-1.56
330.842	-0.32
331.053	-0.69
331.264	-0.73
331.475	-0.67
331.686	-0.83
331.897	-0.38
332.108	-0.31
332.319	-0.71
332.53	-0.25
332.741	-0.9
332.952	-1.44
333.163	-1.46
333.374	-1.42
333.585	-1.43
333.795	-1.45
334.006	-1.59
334.217	-2.28
334.428	-2.39
334.639	-2.09
334.849	-2.59
335.06	-2.34
335.271	-1.65
335.482	-2.26
335.692	-1.95
335.903	-1.5
336.114	-1.68
336.325	-1.53
336.535	-0.87
336.746	-0.71
336.957	-1.1
337.167	-0.77
337.378	-1.11
337.589	-0.93
337.799	-0.98
338.01	-1.13
338.22	-1.34
338.431	-1.06
338.642	-1.12
338.852	-1.52
339.063	-1.64
339.273	-1.34
339.484	-1.42
339.694	-1.74
339.905	-1.79
340.115	-1.43
340.326	-1.72
340.536	-1.87
340.746	-2.44
340.957	-2.65
341.167	-2.42
341.378	-2.65
341.588	-2.8
341.799	-2.88
342.009	-2.71
342.219	-3.04
342.43	-3.19
342.64	-2.92
342.85	-3.11
343.061	-2.83
343.271	-2.27
343.481	-2.86
343.691	-2.37
343.902	-2.45
344.112	-2.16
344.322	-1.83
344.532	-2.04
344.743	-1.8
344.953	-1.75
345.163	-1.57
345.373	-1.49
345.583	-1.51
345.793	-1.04
346.004	-1.3
346.214	-0.99
346.424	-0.58
346.634	-0.84
346.844	-0.88
347.054	-1.26
347.264	-1.61
347.474	-1.5
347.684	-1.17
347.894	-1.49
348.104	-1.71
348.314	-1.74
348.524	-2.13
348.734	-2.42
348.944	-2.06
349.154	-1.94
349.364	-1.96
349.574	-1.6
349.784	-2.03
349.994	-2.58
350.204	-2.28
350.413	-1.82
350.623	-1.92
350.833	-1.56
351.043	-2.17
351.253	-2.37
351.463	-2.24
351.672	-2.17
351.882	-2.48
352.092	-2.1
352.302	-1.67
352.511	-1.93
352.721	-2
352.931	-2.01
353.141	-2.4
353.35	-1.84
353.56	-1.95
353.77	-1.86
353.979	-1.61
354.189	-1.47
354.399	-1.79
354.608	-1.83
354.818	-1.78
355.027	-1.84
355.237	-1.74
355.447	-1.23
355.656	-1.38
355.866	-1.31
356.075	-1.64
356.285	-1.78
356.494	-1.55
356.704	-1.36
356.913	-1.32
357.123	-1.38
357.332	-1.47
357.542	-1.47
357.751	-1.66
357.96	-1.71
358.17	-1.66
358.379	-1.43
358.589	-1.29
358.798	-1.31
359.007	-1.4
359.217	-1.45
359.426	-1.51
359.635	-1.66
359.845	-1.65
360.054	-1.5
360.263	-1.55
360.472	-1.63
360.682	-1.48
360.891	-1.7
361.1	-1.97
361.309	-1.79
361.519	-1.76
361.728	-1.48
361.937	-1.4
362.146	-1.31
362.355	-1.37
362.564	-1.54
362.774	-1.7
362.983	-1.94
363.192	-2.01
363.401	-1.86
363.61	-1.84
363.819	-1.97
364.028	-2.06
364.237	-2.02
364.446	-2.21
364.655	-2.18
364.864	-1.67
365.073	-1.61
365.282	-1.68
365.491	-1.24
365.7	-1.25
365.909	-1.27
366.118	-1.23
366.327	-0.97
366.536	-0.84
366.745	-0.95
366.954	-1.1
367.162	-1.36
367.371	-1.31
367.58	-1.41
367.789	-1.63
367.998	-1.58
368.207	-1.92
368.415	-2.06
368.624	-2.55
368.833	-2.81
369.042	-2.6
369.25	-2.69
369.459	-2.82
369.668	-2.73
369.877	-2.51
370.085	-2.61
370.294	-2.47
370.503	-2.09
370.711	-1.63
370.92	-1.5
371.129	-1.3
371.337	-1.44
371.546	-1.36
371.754	-1.37
371.963	-1.29
372.171	-1.19
372.38	-1.23
372.589	-1.4
372.797	-1.6
373.006	-1.81
373.214	-1.79
373.423	-1.81
373.631	-1.61
373.84	-1.74
374.048	-1.81
374.256	-1.88
374.465	-1.99
374.673	-2.06
374.882	-2.08
375.09	-2.14
375.298	-2.27
375.507	-2.46
375.715	-2.36
375.923	-2.43
376.132	-2.24
376.34	-2.19
376.548	-1.88
376.757	-1.8
376.965	-1.64
377.173	-1.56
377.381	-1.27
377.59	-1.12
377.798	-1.14
378.006	-1.29
378.214	-1.48
378.423	-1.52
378.631	-1.38
378.839	-1.58
379.047	-1.63
379.255	-1.91
379.463	-1.75
379.671	-1.76
379.879	-1.83
380.088	-1.61
380.296	-1.62
380.504	-1.33
380.712	-1.35
380.92	-1.26
381.128	-1.41
381.336	-1.63
381.544	-1.36
381.752	-1.43
381.96	-1.71
382.168	-1.63
382.376	-1.55
382.584	-1.56
382.791	-1.53
382.999	-1.56
383.207	-1.82
383.415	-1.59
383.623	-1.63
383.831	-1.72
384.039	-1.89
384.247	-1.72
384.454	-1.74
384.662	-1.99
384.87	-1.65
385.078	-1.81
385.285	-1.77
385.493	-1.47
385.701	-1.66
385.909	-1.48
386.116	-1.41
386.324	-1.37
386.532	-1.36
386.739	-1.39
386.947	-1.26
387.155	-1.34
387.362	-1.32
387.57	-1.42
387.778	-1.68
387.985	-1.52
388.193	-1.54
388.4	-1.38
388.608	-1.26
388.816	-1.2
389.023	-1.24
389.231	-1.27
389.438	-1.3
389.646	-1.25
389.853	-1.24
390.061	-1.13
390.268	-1.42
390.475	-1.28
390.683	-1.36
390.89	-1.35
391.098	-1.29
391.305	-1.3
391.512	-1.16
391.72	-1.3
391.927	-1.18
392.135	-1.13
392.342	-1.09
392.549	-0.97
392.756	-1.18
392.964	-1.35
393.171	-1.43
393.378	-1.62
393.586	-1.65
393.793	-1.71
394	-1.73
394.207	-1.72
394.414	-1.74
394.622	-1.81
394.829	-1.71
395.036	-1.4
395.243	-1.24
395.45	-1.41
395.657	-1.35
395.864	-1.27
396.072	-1.39
396.279	-1.45
396.486	-1.61
396.693	-1.6
396.9	-1.38
397.107	-1.45
397.314	-1.44
397.521	-1.65
397.728	-1.49
397.935	-1.33
398.142	-1.45
398.349	-1.26
398.556	-1.12
398.763	-1.19
398.97	-1.16
399.177	-1.42
399.383	-1.26
399.59	-1.37
399.797	-1.2
400.004	-1.36
400.211	-1.48
400.418	-1.43
400.625	-1.57
400.831	-1.64
401.038	-1.51
401.245	-1.56
401.452	-1.44
401.658	-1.56
401.865	-1.66
402.072	-1.5
402.279	-1.29
402.485	-1.32
402.692	-1.29
402.899	-1.13
403.105	-1.18
403.312	-1.07
403.519	-1.08
403.725	-1.2
403.932	-1.19
404.138	-1.27
404.345	-1.37
404.552	-1.31
404.758	-1.24
404.965	-1.31
405.171	-1.48
405.378	-1.43
405.584	-1.53
405.791	-1.63
405.997	-1.52
406.204	-1.6
406.41	-1.33
406.617	-1.31
406.823	-1.49
407.029	-1.53
407.236	-1.42
407.442	-1.4
407.649	-1.36
407.855	-1.31
408.061	-1.27
408.268	-1.31
408.474	-1.33
408.68	-1.6
408.887	-1.7
409.093	-1.66
409.299	-1.61
409.505	-1.69
409.712	-1.7
409.918	-1.64
410.124	-1.71
410.33	-1.59
410.537	-1.49
410.743	-1.36
410.949	-1.23
411.155	-1.18
411.361	-1.12
411.567	-1.2
411.773	-1.23
411.98	-1.2
412.186	-1.35
412.392	-1.39
412.598	-1.31
412.804	-1.38
413.01	-1.32
413.216	-1.25
413.422	-1.27
413.628	-1.25
413.834	-1.39
414.04	-1.48
414.246	-1.66
414.452	-1.6
414.658	-1.6
414.864	-1.74
415.07	-1.81
415.275	-1.83
415.481	-1.72
415.687	-1.71
415.893	-1.73
416.099	-1.66
416.305	-1.56
416.511	-1.42
416.716	-1.47
416.922	-1.31
417.128	-1.3
417.334	-1.22
417.539	-1.29
417.745	-1.33
417.951	-1.3
418.157	-1.33
418.362	-1.4
418.568	-1.39
418.774	-1.37
418.979	-1.31
419.185	-1.39
419.391	-1.4
419.596	-1.44
419.802	-1.41
420.008	-1.46
420.213	-0.83
420.419	-0.78
420.624	-0.76
420.83	-0.76
421.035	-0.75
421.241	-0.72
421.446	-0.74
421.652	-0.76
421.857	-0.83
422.063	-0.8
422.268	-0.75
422.474	-1.36
422.679	-1.36
422.885	-1.35
423.09	-1.38
423.295	-1.37
423.501	-1.44
423.706	-1.42
423.911	-1.39
424.117	-1.24
424.322	-1.27
424.527	-1.41
424.733	-1.4
424.938	-1.41
425.143	-1.32
425.349	-1.32
425.554	-1.28
425.759	-1.19
425.964	-1.19
426.169	-1.17
426.375	-1.25
426.58	-1.21
426.785	-1.18
426.99	-1.25
427.195	-1.4
427.4	-1.44
427.605	-1.33
427.811	-1.39
428.016	-1.4
428.221	-1.41
428.426	-1.5
428.631	-1.5
428.836	-1.51
429.041	-1.28
429.246	-1.26
429.451	-1.06
429.656	-1.06
429.861	-1.09
430.066	-1.19
430.271	-1.22
430.476	-1.19
430.681	-1.11
430.886	-1.13
431.09	-1.13
431.295	-1.26
431.5	-1.16
431.705	-1.3
431.91	-1.32
432.115	-1.4
432.32	-1.27
432.524	-1.3
432.729	-1.3
432.934	-1.21
433.139	-1.05
433.343	-0.97
433.548	-0.9
433.753	-0.86
433.958	-0.65
434.162	-0.53
434.367	-0.43
434.572	-0.49
434.776	-0.45
434.981	-0.46
435.186	-0.58
435.39	-0.69
435.595	-0.75
435.799	-0.8
436.004	-0.97
436.209	-1.16
436.413	-1.37
436.618	-1.42
436.822	-1.39
437.027	-1.57
437.231	-1.58
437.436	-1.65
437.64	-1.69
437.845	-1.84
438.049	-1.84
438.253	-1.84
438.458	-1.76
438.662	-1.7
438.867	-1.68
439.071	-1.8
439.275	-1.73
439.48	-1.72
439.684	-1.71
439.888	-1.72
440.093	-1.64
440.297	-1.69
440.501	-1.7
440.706	-1.66
440.91	-1.71
441.114	-1.72
441.318	-1.65
441.523	-1.61
441.727	-1.68
441.931	-1.62
442.135	-1.51
442.339	-1.5
442.543	-1.41
442.748	-1.33
442.952	-1.42
443.156	-1.27
443.36	-1.24
443.564	-1.21
443.768	-1.23
443.972	-1.25
444.176	-1.21
444.38	-1.26
444.584	-1.26
444.788	-1.26
444.992	-1.3
445.196	-1.26
445.4	-1.31
445.604	-1.29
445.808	-1.26
446.012	-1.25
446.216	-1.14
446.42	-1.18
446.624	-1.22
446.828	-1.25
447.032	-1.28
447.235	-1.33
447.439	-1.29
447.643	-1.29
447.847	-1.31
448.051	-1.36
448.254	-1.39
448.458	-1.51
448.662	-1.46
448.866	-1.43
449.069	-1.42
449.273	-1.38
449.477	-1.22
449.681	-1.32
449.884	-1.35
450.088	-1.35
450.292	-1.36
450.495	-1.4
450.699	-1.33
450.902	-1.4
451.106	-1.29
451.31	-1.33
451.513	-1.34
451.717	-1.47
451.92	-1.35
452.124	-1.37
452.327	-1.38
452.531	-1.44
452.734	-1.34
452.938	-1.33
453.141	-1.29
453.345	-1.35
453.548	-1.27
453.752	-1.27
453.955	-1.2
454.158	-1.24
454.362	-1.26
454.565	-1.24
454.769	-1.13
454.972	-1.25
455.175	-1.28
455.379	-1.29
455.582	-1.28
455.785	-1.33
455.988	-1.37
456.192	-1.47
456.395	-1.51
456.598	-1.36
456.801	-1.39
457.005	-1.36
457.208	-1.29
457.411	-1.38
457.614	-1.4
457.817	-1.41
458.021	-1.49
458.224	-1.48
458.427	-1.49
458.63	-1.49
458.833	-1.54
459.036	-1.51
459.239	-1.5
459.442	-1.47
459.645	-1.42
459.848	-1.5
460.051	-1.56
460.254	-1.41
460.457	-1.42
460.66	-1.31
460.863	-1.27
461.066	-1.23
461.269	-1.18
461.472	-1.17
461.675	-1.19
461.878	-1.15
462.081	-1
462.284	-0.86
462.486	-0.98
462.689	-1.04
462.892	-1.18
463.095	-1.31
463.298	-1.44
463.5	-1.52
463.703	-1.49
463.906	-1.52
464.109	-1.57
464.311	-1.57
464.514	-1.71
464.717	-1.54
464.92	-1.4
465.122	-1.36
465.325	-1.16
465.528	-1.16
465.73	-1.06
465.933	-1.14
466.135	-1.1
466.338	-1.07
466.541	-1.02
466.743	-0.99
466.946	-1.06
467.148	-1.11
467.351	-1.09
467.553	-1.22
467.756	-1.12
467.958	-1.16
468.161	-1.25
468.363	-1.41
468.566	-1.35
468.768	-1.37
468.971	-1.32
469.173	-1.29
469.375	-1.29
469.578	-1.25
469.78	-1.3
469.983	-1.31
470.185	-1.36
470.387	-1.24
470.59	-1.06
470.792	-1.05
470.994	-1.04
471.196	-1.05
471.399	-1.08
471.601	-1.1
471.803	-1.11
472.005	-1.15
472.208	-1.09
472.41	-1.07
472.612	-1.07
472.814	-1.09
473.016	-1.12
473.218	-1.21
473.421	-1.26
473.623	-1.28
473.825	-1.31
474.027	-1.3
474.229	-1.2
474.431	-1.32
474.633	-1.28
474.835	-1.32
475.037	-1.4
475.239	-1.42
475.441	-1.43
475.643	-1.44
475.845	-1.42
476.047	-1.37
476.249	-1.34
476.451	-1.41
476.653	-1.33
476.855	-1.35
477.057	-1.3
477.258	-1.22
477.46	-1.18
477.662	-1.21
477.864	-1.16
478.066	-1.06
478.268	-1.05
478.469	-1.14
478.671	-1.12
478.873	-1.17
479.075	-1.19
479.276	-1.26
479.478	-1.23
479.68	-1.31
479.882	-1.28
480.083	-1.31
480.285	-1.33
480.487	-1.32
480.688	-1.26
480.89	-1.22
481.091	-1.22
481.293	-1.22
481.495	-1.18
481.696	-1.21
481.898	-1.19
482.099	-1.18
482.301	-1.19
482.502	-1.2
482.704	-1.22
482.905	-1.2
483.107	-1.23
483.308	-1.21
483.51	-1.23
483.711	-1.25
483.913	-1.25
484.114	-1.25
484.315	-1.26
484.517	-1.21
484.718	-1.22
484.92	-1.2
485.121	-1.25
485.322	-1.2
485.524	-1.19
485.725	-1.17
485.926	-1.21
486.127	-1.2
486.329	-1.18
486.53	-1.17
486.731	-1.18
486.932	-1.18
487.134	-1.19
487.335	-1.2
487.536	-1.23
487.737	-1.26
487.938	-1.24
488.139	-1.23
488.341	-1.25
488.542	-1.26
488.743	-1.3
488.944	-1.33
489.145	-1.34
489.346	-1.33
489.547	-1.31
489.748	-1.29
489.949	-1.3
490.15	-1.35
490.351	-1.31
490.552	-1.32
490.753	-1.31
490.954	-1.3
491.155	-1.28
491.356	-1.33
491.557	-1.33
491.758	-1.37
491.959	-1.44
492.159	-1.45
492.36	-1.41
492.561	-1.47
492.762	-1.42
492.963	-1.45
493.164	-1.42
493.364	-1.46
493.565	-1.4
493.766	-1.38
493.967	-1.32
494.167	-1.26
494.368	-1.21
494.569	-1.29
494.769	-1.29
494.97	-1.29
495.171	-1.29
495.371	-1.22
495.572	-1.23
495.773	-1.25
495.973	-1.26
496.174	-1.36
496.375	-1.33
496.575	-1.25
496.776	-1.17
496.976	-1.21
497.177	-1.31
497.377	-1.29
497.578	-1.44
497.778	-1.47
497.979	-1.46
498.179	-1.42
498.38	-1.38
498.58	-1.42
498.78	-1.56
498.981	-1.49
499.181	-1.47
499.382	-1.37
499.582	-1.38
499.782	-1.32
499.983	-1.25
500.183	-1.3
500.383	-1.36
500.584	-1.32
500.784	-1.43
500.984	-1.43
501.184	-1.55
501.385	-1.48
501.585	-1.5
501.785	-1.52
501.985	-1.5
502.185	-1.45
502.386	-1.45
502.586	-1.42
502.786	-1.43
502.986	-1.23
503.186	-1.22
503.386	-1.16
503.586	-1.19
503.786	-1.21
503.987	-1.2
504.187	-1.14
504.387	-1.19
504.587	-1.16
504.787	-1.19
504.987	-1.18
505.187	-1.27
505.387	-1.23
505.587	-1.2
505.786	-1.27
505.986	-1.24
506.186	-1.28
506.386	-1.37
506.586	-1.36
506.786	-1.36
506.986	-1.32
507.186	-1.31
507.386	-1.3
507.585	-1.28
507.785	-1.36
507.985	-1.28
508.185	-1.3
508.384	-1.26
508.584	-1.32
508.784	-1.32
508.984	-1.41
509.183	-1.39
509.383	-1.38
509.583	-1.38
509.782	-1.35
509.982	-1.31
510.182	-1.25
510.381	-1.24
510.581	-1.29
510.781	-1.16
510.98	-1.17
511.18	-1.04
511.379	-1.16
511.579	-1.13
511.778	-1.12
511.978	-1.17
512.177	-1.2
512.377	-1.3
512.576	-1.31
512.776	-1.27
512.975	-1.31
513.175	-1.34
513.374	-1.45
513.573	-1.42
513.773	-1.46
513.972	-1.43
514.172	-1.4
514.371	-1.32
514.57	-1.29
514.77	-1.26
514.969	-1.17
515.168	-1.25
515.367	-1.18
515.567	-1.16
515.766	-1.12
515.965	-1.11
516.164	-1.12
516.364	-1.21
516.563	-1.28
516.762	-1.34
516.961	-1.32
517.16	-1.31
517.359	-1.3
517.559	-1.34
517.758	-1.33
517.957	-1.35
518.156	-1.35
518.355	-1.4
518.554	-1.4
518.753	-1.37
518.952	-1.36
519.151	-1.42
519.35	-1.55
519.549	-1.5
519.748	-1.54
519.947	-1.51
520.146	-1.55
520.345	-1.6
520.544	-1.62
520.743	-1.6
520.942	-1.57
521.141	-1.59
521.339	-1.49
521.538	-1.42
521.737	-1.33
521.936	-1.24
522.135	-1.25
522.333	-1.17
522.532	-1.15
522.731	-1.1
522.93	-1.08
523.129	-1.15
523.327	-1.14
523.526	-1.15
523.725	-1.17
523.923	-1.21
524.122	-1.26
524.321	-1.33
524.519	-1.39
524.718	-1.38
524.917	-1.36
525.115	-1.38
525.314	-1.36
525.512	-1.31
525.711	-1.35
525.909	-1.36
526.108	-1.39
526.306	-1.37
526.505	-1.33
526.703	-1.3
526.902	-1.26
527.1	-1.28
527.299	-1.26
527.497	-1.26
527.696	-1.26
527.894	-1.24
528.092	-1.22
528.291	-1.2
528.489	-1.22
528.688	-1.18
528.886	-1.18
529.084	-1.23
529.283	-1.2
529.481	-1.19
529.679	-1.21
529.877	-1.26
530.076	-1.29
530.274	-1.29
530.472	-1.32
530.67	-1.29
530.869	-1.35
531.067	-1.33
531.265	-1.29
531.463	-1.31
531.661	-1.33
531.859	-1.27
532.057	-1.2
532.255	-1.21
532.454	-1.21
532.652	-1.2
532.85	-1.17
533.048	-1.15
533.246	-1.16
533.444	-1.14
533.642	-1.16
533.84	-1.15
534.038	-1.18
534.236	-1.2
534.434	-1.21
534.632	-1.24
534.83	-1.22
535.027	-1.24
535.225	-1.19
535.423	-1.25
535.621	-1.25
535.819	-1.23
536.017	-1.15
536.215	-1.15
536.412	-1.15
536.61	-1.1
536.808	-1.09
537.006	-1.03
537.203	-0.94
537.401	-1.02
537.599	-0.89
537.797	-0.89
537.994	-0.76
538.192	-0.8
538.39	-0.65
538.587	-0.62
538.785	-0.52
538.983	-0.43
539.18	-0.36
539.378	-0.37
539.575	-0.32
539.773	-0.3
539.97	-0.23
540.168	-0.2
540.366	-0.15
540.563	-0.17
540.761	-0.11
540.958	-0.08
541.155	-0.02
541.353	0.01
541.55	0.04
541.748	0.08
541.945	0.13
542.143	0.17
542.34	0.18
542.537	0.22
542.735	0.25
542.932	0.34
543.129	0.38
543.327	0.49
543.524	0.55
543.721	0.69
543.919	0.86
544.116	1.02
544.313	1.08
544.51	1.25
544.708	1.34
544.905	1.37
545.102	1.37
545.299	1.35
545.496	1.26
545.693	1.22
545.891	1.11
546.088	1.01
546.285	0.88
546.482	0.73
546.679	0.52
546.876	0.45
547.073	0.44
547.27	0.36
547.467	0.28
547.664	0.17
547.861	0.06
548.058	0.07
548.255	-0.02
548.452	-0.1
548.649	-0.1
548.846	-0.15
549.043	-0.31
549.24	-0.47
549.437	-0.63
549.633	-0.81
549.83	-0.81
550.027	-0.92
550.224	-1
550.421	-0.97
550.618	-0.97
550.814	-0.97
551.011	-0.93
551.208	-0.94
551.405	-0.88
551.601	-0.85
551.798	-0.7
551.995	-0.83
552.191	-0.81
552.388	-0.81
552.585	-0.83
552.781	-0.95
552.978	-1.01
553.175	-0.99
553.371	-1.05
553.568	-1.07
553.764	-1.12
553.961	-1.29
554.157	-1.11
554.354	-1.1
554.55	-1.15
554.747	-1.14
554.943	-1.07
555.14	-1
555.336	-1.13
555.533	-1
555.729	-1.01
555.926	-0.91
556.122	-0.87
556.318	-0.93
556.515	-0.96
556.711	-1
556.907	-1.07
557.104	-1.11
557.3	-1.3
557.496	-1.28
557.693	-1.41
557.889	-1.54
558.085	-1.68
558.281	-1.64
558.478	-1.68
558.674	-1.64
558.87	-1.59
559.066	-1.62
559.262	-1.59
559.459	-1.43
559.655	-1.31
559.851	-1.27
560.047	-1.18
560.243	-0.99
560.439	-1
560.635	-1.02
560.831	-1.09
561.027	-1.1
561.223	-1.07
561.419	-1.17
561.615	-1.19
561.811	-1.38
562.007	-1.35
562.203	-1.29
562.399	-1.43
562.595	-1.41
562.791	-1.36
562.987	-1.37
563.183	-1.37
563.379	-1.34
563.575	-1.22
563.771	-1.13
563.966	-1.06
564.162	-0.99
564.358	-1.09
564.554	-1.13
564.75	-1.06
564.945	-1.07
565.141	-0.98
565.337	-1.02
565.533	-1.17
565.728	-1.25
565.924	-1.4
566.12	-1.34
566.315	-1.38
566.511	-1.32
566.707	-1.32
566.902	-1.39
567.098	-1.41
567.293	-1.47
567.489	-1.47
567.684	-1.33
567.88	-1.26
568.076	-1.26
568.271	-1.33
568.467	-1.4
568.662	-1.47
568.858	-1.43
569.053	-1.47
569.248	-1.57
569.444	-1.54
569.639	-1.45
569.835	-1.44
570.03	-1.48
570.225	-1.42
570.421	-1.44
570.616	-1.32
570.812	-1.29
571.007	-1.28
571.202	-1.23
571.397	-1.19
571.593	-1.19
571.788	-1.2
571.983	-1.21
572.178	-1.1
572.374	-1.05
572.569	-1.04
572.764	-1.09
572.959	-1.08
573.154	-0.99
573.35	-1.04
573.545	-0.95
573.74	-0.92
573.935	-0.98
574.13	-0.96
574.325	-1.05
574.52	-1.1
574.715	-1.13
574.91	-1.08
575.105	-1.05
575.3	-1.13
575.495	-1.04
575.69	-1.06
575.885	-1.17
576.08	-1.2
576.275	-1.17
576.47	-1.1
576.665	-1.13
576.86	-1.08
577.055	-1.14
577.25	-1.03
577.444	-1
577.639	-1.05
577.834	-1.07
578.029	-0.85
578.224	-0.83
578.418	-0.76
578.613	-0.68
578.808	-0.68
579.003	-0.61
579.197	-0.6
579.392	-0.71
579.587	-0.66
579.781	-0.61
579.976	-0.57
580.171	-0.63
580.365	-0.58
580.56	-0.65
580.755	-0.7
580.949	-0.52
581.144	-0.51
581.338	-0.42
581.533	-0.49
581.727	-0.45
581.922	-0.54
582.116	-0.53
582.311	-0.65
582.505	-0.56
582.7	-0.6
582.894	-0.6
583.089	-0.68
583.283	-0.82
583.478	-0.98
583.672	-0.81
583.866	-0.83
584.061	-0.61
584.255	-0.65
584.449	-0.51
584.644	-0.46
584.838	-0.27
585.032	-0.14
585.226	-0.07
585.421	0.1
585.615	0.18
585.809	0.17
586.003	0.15
586.198	0.03
586.392	0.09
586.586	-0.16
586.78	-0.23
586.974	-0.24
587.168	-0.47
587.363	-0.56
587.557	-0.67
587.751	-0.72
587.945	-0.84
588.139	-0.86
588.333	-0.87
588.527	-0.77
588.721	-0.56
588.915	-0.65
589.109	-0.7
589.303	-0.6
589.497	-0.41
589.691	-0.37
589.885	-0.2
590.079	-0.11
590.273	-0.15
590.466	-0.18
590.66	-0.25
590.854	-0.36
591.048	-0.32
591.242	-0.34
591.436	-0.18
591.629	-0.32
591.823	-0.27
592.017	-0.35
592.211	-0.38
592.404	-0.36
592.598	-0.4
592.792	-0.52
592.986	-0.52
593.179	-0.54
593.373	-0.47
593.567	-0.69
593.76	-0.77
593.954	-0.87
594.147	-0.94
594.341	-1.1
594.535	-1.2
594.728	-1.1
594.922	-1.03
595.115	-1.09
595.309	-0.98
595.502	-1.14
595.696	-1.09
595.889	-1.06
596.083	-1.03
596.276	-0.92
596.47	-0.77
596.663	-0.68
596.856	-0.76
597.05	-0.58
597.243	-0.59
597.437	-0.71
597.63	-0.62
597.823	-0.63
598.017	-0.62
598.21	-0.73
598.403	-0.81
598.596	-0.92
598.79	-1.11
598.983	-1.12
599.176	-1.41
599.369	-1.28
599.563	-1.17
599.756	-1.1
599.949	-1.15
600.142	-1.14
600.335	-1.04
600.528	-1.14
600.722	-1.15
600.915	-0.91
601.108	-0.93
601.301	-0.95
601.494	-1
601.687	-1.05
601.88	-1.02
602.073	-0.93
602.266	-0.91
602.459	-0.87
602.652	-0.73
602.845	-0.75
603.038	-0.73
603.231	-0.63
603.424	-0.59
603.617	-0.58
603.809	-0.64
604.002	-0.76
604.195	-0.88
604.388	-0.89
604.581	-0.98
604.774	-1.03
604.966	-0.99
605.159	-1.12
605.352	-1.06
605.545	-0.98
605.737	-0.92
605.93	-0.93
606.123	-0.91
606.316	-0.71
606.508	-0.69
606.701	-0.59
606.894	-0.56
607.086	-0.5
607.279	-0.41
607.471	-0.35
607.664	-0.2
607.857	-0.16
608.049	0.14
608.242	0.51
608.434	0.77
608.627	1.11
608.819	1.57
609.012	1.99
609.204	2.54
609.397	3.13
609.589	3.62
609.782	4.06
609.974	4.64
610.166	5.09
610.359	5.39
610.551	5.69
610.743	5.78
610.936	5.9
611.128	5.85
611.32	5.84
611.513	5.59
611.705	5.35
611.897	5.01
612.09	4.56
612.282	4.34
612.474	3.9
612.666	3.52
612.858	3.21
613.051	2.88
613.243	2.69
613.435	2.29
613.627	1.99
613.819	1.56
614.011	1.45
614.203	1.68
614.395	1.35
614.588	1.21
614.78	0.88
614.972	0.63
615.164	0.41
615.356	0.26
615.548	0.09
615.74	0.01
615.932	0.02
616.124	-0.18
616.315	-0.23
616.507	-0.19
616.699	-0.34
616.891	-0.4
617.083	-0.25
617.275	-0.26
617.467	-0.31
617.659	-0.25
617.85	-0.17
618.042	-0.22
618.234	-0.12
618.426	-0.51
618.618	-0.67
618.809	-0.39
619.001	-0.23
619.193	-0.07
619.384	-0.03
619.576	-0.15
619.768	-0.24
619.959	-0.29
620.151	-0.32
620.343	-0.23
620.534	-0.15
620.726	-0.08
620.917	-0.23
621.109	-0.33
621.301	-0.36
621.492	-0.25
621.684	-0.1
621.875	-0.01
622.067	0.06
622.258	0.2
622.45	0.15
622.641	0.1
622.832	0.09
623.024	0.08
623.215	0.14
623.407	-0.08
623.598	-0.27
623.789	-0.38
623.981	-0.45
624.172	-0.51
624.363	-0.5
624.555	-0.54
624.746	-0.58
624.937	-0.74
625.129	-0.76
625.32	-0.71
625.511	-0.75
625.702	-0.8
625.893	-0.73
626.085	-0.61
626.276	-0.69
626.467	-0.73
626.658	-0.85
626.849	-0.72
627.04	-0.63
627.231	-0.51
627.422	-0.59
627.614	-0.65
627.805	-0.75
627.996	-0.66
628.187	-0.68
628.378	-0.65
628.569	-0.67
628.76	-0.62
628.951	-0.54
629.142	-0.59
629.332	-0.55
629.523	-0.42
629.714	-0.2
629.905	-0.1
630.096	-0.04
630.287	-0.03
630.478	-0.01
630.669	-0.13
630.859	-0.06
631.05	-0.3
631.241	-0.18
631.432	-0.42
631.623	-0.36
631.813	-0.29
632.004	-0.28
632.195	-0.44
632.385	-0.58
632.576	-0.78
632.767	-0.89
632.957	-0.82
633.148	-0.71
633.339	-0.83
633.529	-0.7
633.72	-0.88
633.91	-0.93
634.101	-0.92
634.292	-1.08
634.482	-1.31
634.673	-1.07
634.863	-0.91
635.054	-1.02
635.244	-1.05
635.435	-0.98
635.625	-1.13
635.815	-1.05
636.006	-1.14
636.196	-1.16
636.387	-0.91
636.577	-0.69
636.767	-0.82
636.958	-0.79
637.148	-0.74
637.338	-0.84
637.529	-0.88
637.719	-1.05
637.909	-1.33
638.099	-1.43
638.29	-1.44
638.48	-1.6
638.67	-1.55
638.86	-1.44
639.05	-1.45
639.241	-1.36
639.431	-1.21
639.621	-1.29
639.811	-1.02
640.001	-0.76
640.191	-0.41
640.381	-0.45
640.571	-0.63
640.761	-0.72
640.951	-0.89
641.141	-0.75
641.331	-0.96
641.521	-1.19
641.711	-1.13
641.901	-1.14
642.091	-1.24
642.281	-1.34
642.471	-1.39
642.661	-1.19
642.851	-1.11
643.041	-1.04
643.231	-1.2
643.42	-1.45
643.61	-1.27
643.8	-1.17
643.99	-1.29
644.18	-1.03
644.369	-1.2
644.559	-1.1
644.749	-1.08
644.939	-1.08
645.128	-1.04
645.318	-1.17
645.508	-0.8
645.697	-0.78
645.887	-0.87
646.076	-0.87
646.266	-1.13
646.456	-1.32
646.645	-1.36
646.835	-1.18
647.024	-1.49
647.214	-1.58
647.403	-1.53
647.593	-1.68
647.782	-1.77
647.972	-1.71
648.161	-1.87
648.351	-1.81
648.54	-1.66
648.73	-1.49
648.919	-1.56
649.108	-1.15
649.298	-1.16
649.487	-1.14
649.677	-0.93
649.866	-0.85
650.055	-0.96
650.244	-0.76
650.434	-0.82
650.623	-0.7
650.812	-0.86
651.002	-0.83
651.191	-1.07
651.38	-0.84
651.569	-0.73
651.758	-0.89
651.947	-0.9
652.137	-0.86
652.326	-0.82
652.515	-0.79
652.704	-0.85
652.893	-0.78
653.082	-1.06
653.271	-0.97
653.46	-1.11
653.649	-1.06
653.838	-0.97
654.027	-1.05
654.216	-1.14
654.405	-1.1
654.594	-1.06
654.783	-1.02
654.972	-1.04
655.161	-1.05
655.35	-1.14
655.539	-1.17
655.728	-1.04
655.916	-1.05
656.105	-1.05
656.294	-0.87
656.483	-0.94
656.672	-1.1
656.86	-1.21
657.049	-1.16
657.238	-1.2
657.427	-1.1
657.615	-1.29
657.804	-1.52
657.993	-1.41
658.181	-1.56
658.37	-1.62
658.559	-1.69
658.747	-1.61
658.936	-1.64
659.125	-1.88
659.313	-1.69
659.502	-1.65
659.69	-1.38
659.879	-1.43
660.067	-1.54
660.256	-1.47
660.444	-1.49
660.633	-1.38
660.821	-1.5
661.01	-1.43
661.198	-1.21
661.387	-1.2
661.575	-1.2
661.763	-1.26
661.952	-1.2
662.14	-1.25
662.328	-0.98
662.517	-1.18
662.705	-1.07
662.893	-0.76
663.082	-0.71
663.27	-0.77
663.458	-0.87
663.646	-1.21
663.834	-1.14
664.023	-1.18
664.211	-1.19
664.399	-1.37
664.587	-0.79
664.775	-0.69
664.963	-0.83
665.152	-1.01
665.34	-1.05
665.528	-1.01
665.716	-0.86
665.904	-0.83
666.092	-0.64
666.28	-0.55
666.468	-0.68
666.656	-1
666.844	-1.34
667.032	-1.27
667.22	-0.9
667.408	-0.78
667.596	-0.59
667.784	-0.68
667.971	-0.67
668.159	-0.59
668.347	-0.65
668.535	-0.45
668.723	-0.53
668.911	-0.67
669.098	-1.02
669.286	-1.27
669.474	-1.25
669.662	-1.44
669.849	-1.37
670.037	-1.59
670.225	-1.85
670.413	-1.93
670.6	-2.02
670.788	-1.83
670.976	-1.43
671.163	-1.34
671.351	-1.49
671.538	-1.41
671.726	-1.39
671.913	-1.35
672.101	-1.19
672.289	-1.02
672.476	-0.99
672.664	-1.21
672.851	-1.47
673.039	-1.49
673.226	-1.46
673.413	-1.33
673.601	-1.59
673.788	-1.58
673.976	-1.78
674.163	-1.9
674.35	-2.01
674.538	-2.11
674.725	-1.96
674.912	-1.75
675.1	-1.71
675.287	-1.39
675.474	-1.16
675.662	-0.9
675.849	-0.87
676.036	-0.57
676.223	-0.66
676.411	-0.74
676.598	-0.68
676.785	-0.49
676.972	-0.4
677.159	-0.79
677.346	-0.84
677.533	-1.21
677.721	-1.03
677.908	-1.02
678.095	-1.31
678.282	-1.14
678.469	-0.97
678.656	-0.97
678.843	-1.12
679.03	-1.43
679.217	-1.15
679.404	-1.37
679.591	-1.39
679.778	-1.54
679.964	-1.64
680.151	-1.45
680.338	-1.88
680.525	-2
680.712	-1.92
680.899	-1.69
681.086	-1.53
681.272	-1.67
681.459	-1.58
681.646	-1.38
681.833	-1.67
682.02	-1.53
682.206	-1.51
682.393	-1.03
682.58	-1.02
682.766	-1.04
682.953	-1.36
683.14	-1.43
683.326	-1.3
683.513	-1.21
683.7	-1.13
683.886	-0.86
684.073	-0.68
684.259	-0.62
684.446	-0.44
684.632	-0.44
684.819	-0.78
685.005	-0.4
685.192	-0.39
685.378	-0.5
685.565	-0.38
685.751	-0.41
685.938	-0.36
686.124	-0.57
686.31	-0.7
686.497	-0.93
686.683	-0.98
686.87	-0.65
687.056	-0.79
687.242	-0.64
687.429	-0.25
687.615	-0.44
687.801	-0.35
687.987	-0.43
688.174	-0.73
688.36	-0.55
688.546	-0.58
688.732	-0.59
688.918	-0.57
689.105	-0.7
689.291	-0.86
689.477	-1.29
689.663	-1.08
689.849	-1.15
690.035	-1.12
690.221	-0.93
690.407	-0.85
690.593	-0.81
690.779	-0.67
690.965	-0.87
691.151	-0.99
691.337	-0.83
691.523	-0.79
691.709	-0.94
691.895	-0.87
692.081	-0.91
692.267	-0.76
692.453	-0.82
692.639	-0.64
692.825	-0.81
693.011	-0.67
693.196	-0.53
693.382	-0.74
693.568	-0.68
693.754	-0.82
693.94	-0.85
694.125	-0.85
694.311	-0.82
694.497	-1
694.682	-1.3
694.868	-1.31
695.054	-1.34
695.239	-1.26
695.425	-1.28
695.611	-1.29
695.796	-1
695.982	-1.13
696.168	-1.11
696.353	-0.98
696.539	-1.16
696.724	-1.16
696.91	-1.33
697.095	-1.34
697.281	-1.33
697.466	-1.1
697.652	-0.94
697.837	-1.01
698.023	-0.94
698.208	-1.11
698.393	-1.23
698.579	-1.05
698.764	-1.13
698.949	-1.04
699.135	-0.99
699.32	-0.87
699.505	-0.95
699.691	-1.06
699.876	-1.21
700.061	-1.18
700.246	-0.83
700.432	-1.06
700.617	-1.11
700.802	-0.96
700.987	-0.57
701.172	0.02
701.358	-0.19
701.543	0.16
701.728	-0.02
701.913	0.15
702.098	0.11
702.283	-0.26
702.468	0.3
702.653	0.29
702.838	0.88
703.023	0.98
703.208	0.33
703.393	0.52
703.578	0.18
703.763	0.48
703.948	0.63
704.133	0.75
704.318	1.46
704.503	1.31
704.688	1.95
704.873	1.77
705.057	1.75
705.242	2.09
705.427	2.25
705.612	2.52
705.797	2.35
705.981	2.62
706.166	3.17
706.351	3.39
706.536	3.61
706.72	3.66
706.905	3.97
707.09	4.51
707.274	4.65
707.459	4.85
707.644	5.12
707.828	5.16
708.013	5.21
708.197	5
708.382	4.33
708.567	3.83
708.751	3.62
708.936	3.27
709.12	2.61
709.305	2.46
709.489	2.35
709.673	1.92
709.858	2.27
710.042	1.96
710.227	1.82
710.411	2.06
710.596	2.2
710.78	2.02
710.964	1.76
711.149	1.86
711.333	1.7
711.517	1.36
711.702	1.26
711.886	1.02
712.07	1.01
712.254	0.72
712.438	0.4
712.623	0.45
712.807	0.02
712.991	0.06
713.175	-0.09
713.359	-0.17
713.544	-0.32
713.728	-0.17
713.912	-0.27
714.096	-0.66
714.28	-0.98
714.464	-1.34
714.648	-1.52
714.832	-1.42
715.016	-1.28
715.2	-1.3
715.384	-1.42
715.568	-1.08
715.752	-1.36
715.936	-1.9
716.12	-1.5
716.304	-1.13
716.488	-0.98
716.671	-0.8
716.855	-0.56
717.039	-0.76
717.223	-1.28
717.407	-1.09
717.59	-1.36
717.774	-1.26
717.958	-0.94
718.142	-1.02
718.325	-1.43
718.509	-1.2
718.693	-1
718.877	-0.9
719.06	-0.91
719.244	-0.06
719.428	-0.06
719.611	-0.09
719.795	-0.16
719.978	0.01
720.162	0.29
720.345	0.62
720.529	0.79
720.713	0.39
720.896	0.24
721.08	0.45
721.263	-0.17
721.446	-0.26
721.63	-0.29
721.813	-0.42
721.997	-0.42
722.18	-0.7
722.364	-0.81
722.547	-1.17
722.73	-0.88
722.914	-0.86
723.097	-1.16
723.28	-0.63
723.464	-0.95
723.647	-0.66
723.83	-1.04
724.013	-0.81
724.197	-0.94
724.38	-1.08
724.563	-1.15
724.746	-1.59
724.929	-1.55
725.112	-1.53
725.296	-1.92
725.479	-1.68
725.662	-2.02
725.845	-1.5
726.028	-1.55
726.211	-1.59
726.394	-1.31
726.577	-1.04
726.76	-0.65
726.943	-0.87
727.126	-1.07
727.309	-0.97
727.492	-1.08
727.675	-1.06
727.858	-1.14
728.041	-1.23
728.224	-1.23
728.407	-1.3
728.589	-1.56
728.772	-2.1
728.955	-1.79
729.138	-1.55
729.321	-1.78
729.503	-2.12
729.686	-2.08
729.869	-2.04
730.052	-2.27
730.234	-2.41
730.417	-2.24
730.6	-2.07
730.782	-1.58
730.965	-1.86
731.148	-1.49
731.33	-1.12
731.513	-0.48
731.695	-0.29
731.878	-0.53
732.061	-0.14
732.243	0.47
732.426	0.33
732.608	0.52
732.791	0.45
732.973	0.86
733.156	0.49
733.338	0.54
733.52	0.6
733.703	0.82
733.885	0.94
734.068	0.7
734.25	-0.22
734.432	-0.3
734.615	-0.56
734.797	-0.4
734.979	-0.75
735.162	-0.7
735.344	-1.42
735.526	-1.44
735.708	-1.59
735.891	-1.04
736.073	-1
736.255	-0.44
736.437	-0.71
736.619	-0.91
736.802	-1.27
736.984	-1.23
737.166	-1.31
737.348	-0.88
737.53	-0.84
737.712	-1.28
737.894	-1.79
738.076	-1.25
738.258	-1.38
738.44	-0.98
738.622	-1.03
738.804	-0.68
738.986	-1.35
739.168	-0.56
739.35	-0.79
739.532	-1.17
739.714	-0.86
739.896	-0.47
740.078	-0.81
740.259	-0.9
740.441	-1.32
740.623	-0.75
740.805	-1.39
740.987	-0.51
741.168	-1.87
741.35	-1.66
741.532	-1.35
741.714	-1.16
741.895	-0.9
742.077	-1.13
742.259	-1.09
742.44	-0.95
742.622	-1.27
742.804	-0.92
742.985	-0.97
743.167	-0.2
743.348	0.12
743.53	-0.28
743.711	-0.47
743.893	0.15
744.075	0.92
744.256	1.06
744.438	1.73
744.619	2.03
744.8	1.59
744.982	1.9
745.163	2
745.345	1.15
745.526	1.52
745.707	1
745.889	-0.4
746.07	-1.3
746.252	-0.82
746.433	-1.83
746.614	-2.44
746.795	-1.87
746.977	-2.4
747.158	-2.85
747.339	-2.42
747.52	-2.6
747.702	-1.56
747.883	-0.97
748.064	-0.92
748.245	-1.28
748.426	-0.95
748.607	-0.96
748.788	-1.05
748.97	-0.75
749.151	-1.12
749.332	-0.77
749.513	-0.65
749.694	-1.56
749.875	-1.27
750.056	-1.45
750.237	-1.58
750.418	-1.03
750.599	-1.2
750.78	-1.68
750.96	-1.46
751.141	-0.71
751.322	-0.79
751.503	-1.22
751.684	-1.44
751.865	-2.54
752.046	-2.54
752.226	-2.88
752.407	-2.92
752.588	-1.53
752.769	-1.01
752.949	-2.05
753.13	-3.14
753.311	-2.64
753.492	-2.15
753.672	-2
753.853	-0.77
754.034	0.14
754.214	0.56
754.395	-0.45
754.575	-1.34
754.756	-1.64
754.937	-1
755.117	0.16
755.298	0.13
755.478	-0.49
755.659	-0.87
755.839	-1.49
756.02	-2.25
756.2	-2.25
756.381	-1.17
756.561	-0.47
756.741	-0.46
756.922	-0.49
757.102	-0.84
757.283	-1.27
757.463	-1.26
757.643	-0.78
757.823	-0.56
758.004	-0.43
758.184	-0.74
758.364	-0.23
758.545	-0.71
758.725	-0.53
758.905	-0.46
759.085	-0.51
759.265	-0.57
759.446	0.21
759.626	0.15
759.806	0.04
759.986	0.33
760.166	1.19
760.346	-0.14
760.526	-0.35
760.706	-0.12
760.886	-0.57
761.066	-0.2
761.246	0.13
761.426	-0.33
761.606	-0.61
761.786	-0.76
761.966	-1.24
762.146	-1.69
762.326	-1.25
762.506	-1.22
762.686	-1.47
762.866	-1.08
763.046	-1.28
763.225	-1.52
763.405	-1.47
763.585	-1.16
763.765	-1.26
763.945	-1.26
764.124	-1.22
764.304	-0.85
764.484	-0.83
764.664	-0.93
764.843	-0.95
765.023	-1.02
765.203	-1.22
765.382	-1.39
765.562	-1
765.741	-1.5
765.921	-1.57
766.101	-1.63
766.28	-2.09
766.46	-2.36
766.639	-2.02
766.819	-1.97
766.998	-2.35
767.178	-2.01
767.357	-1.76
767.537	-2.47
767.716	-1.89
767.896	-1.73
768.075	-1.96
768.254	-2.27
768.434	-1.7
768.613	-1.22
768.792	-2.04
768.972	-1.07
769.151	-1.5
769.33	-1.29
769.51	-0.2
769.689	-0.5
769.868	0
770.047	-0
770.226	-0.33
770.406	-0.4
770.585	-1.42
770.764	-1.16
770.943	-1.81
771.122	-1.38
771.301	-0.89
771.48	-1.98
771.66	-1.58
771.839	-1.55
772.018	-1.16
772.197	-0.71
772.376	-0.79
772.555	-0.7
772.734	-0.52
772.913	-0.42
773.092	-0.52
773.271	-1.61
773.449	-1.26
773.628	-1.71
773.807	-3.16
773.986	-3.29
774.165	-2.25
774.344	-2.44
774.523	-1.69
774.701	-2.05
774.88	-2.02
775.059	-2.1
775.238	-1.96
775.417	-1.97
775.595	-1.37
775.774	-0.71
775.953	-0.23
776.131	-1.26
776.31	-0.73
776.489	-1.55
776.667	-0.61
776.846	-0.48
777.025	-0.56
777.203	-0.99
777.382	-0.23
777.56	-0.6
777.739	0.47
777.917	-1.03
778.096	-1.08
778.274	-1.04
778.453	-0.68
778.631	-0.29
778.81	0.11
778.988	0.43
779.166	1.34
779.345	0.36
779.523	0.33
779.702	-0.3
779.88	1.42
780.058	1.45
780.237	1.03
780.415	1.33
780.593	0.44
780.771	-0.25
780.95	0.17
781.128	-0.24
781.306	0.48
781.484	1.55
781.662	1.08
781.841	-0.02
782.019	0.21
782.197	0.27
782.375	-0.49
782.553	-0.05
782.731	0.43
782.909	-0.37
783.087	-0.63
783.265	-1.24
783.443	-0.59
783.621	-1.03
783.799	-0.55
783.977	0.07
784.155	0.46
784.333	0.72
784.511	0.35
784.689	0.38
784.867	0.3
785.045	0.79
785.223	0.23
785.4	-0.87
785.578	0.31
785.756	0.39
785.934	-0.39
786.112	-1.13
786.289	-0.49
786.467	-0.25
786.645	-0.87
786.823	-0.47
787	-0.02
787.178	-0
787.356	-0.68
787.533	-0.96
787.711	-1.49
787.889	-0.8
788.066	-0.95
788.244	-0.74
788.421	-1.58
788.599	-1.03
788.776	-1.97
788.954	-2.59
789.131	-2.54
789.309	-1.65
789.486	-2.71
789.664	-1.43
789.841	-1.5
790.019	0.12
790.196	-0.86
790.373	0.12
790.551	0.78
790.728	2.07
790.906	1.84
791.083	1.9
791.26	1.5
791.437	2.87
791.615	2.54
791.792	2.56
791.969	1.36
792.146	2.48
792.324	2.45
792.501	1.23
792.678	1.39
792.855	1.49
793.032	1.02
793.209	0.72
793.387	0.26
793.564	-0.66
793.741	-2.16
793.918	-2.84
794.095	-2.79
794.272	-2.85
794.449	-2.88
794.626	-2.91
794.803	-2.7
794.98	-0.97
795.157	-1.62
795.334	-0.88
795.511	-0.46
795.688	0.22
795.864	1
796.041	0.51
796.218	-0.4
796.395	-0.07
796.572	-0.44
796.749	-0.76
796.925	-1.28
797.102	-0.33
797.279	0.17
797.456	0.24
797.632	-0.51
797.809	-0.07
797.986	0.1
798.162	0.56
798.339	0.35
798.516	0.44
798.692	0.66
798.869	0.37
799.046	-0.06
799.222	-2.19
799.399	-2.9
799.575	-2.35
799.752	-2.85
799.928	-2.65
800.105	-2.58
800.281	-2.8
800.458	-3.24
800.634	-3.8
800.811	-3.67
800.987	-4.2
801.163	-3.7
801.34	-4.72
801.516	-3.72
801.692	-3.55
801.869	-3.62
802.045	-2.29
802.221	-1.03
802.398	-1.33
802.574	-0.8
802.75	-0.59
802.926	-1.12
803.103	-0.5
803.279	0.18
803.455	-0.6
803.631	-0.11
803.807	-1.95
803.983	-1.74
804.16	-2.94
804.336	-2.4
804.512	-2.26
804.688	-4.14
804.864	-3.5
805.04	-3.5
805.216	-3.77
805.392	-3.63
805.568	-5.31
805.744	-3.9
805.92	-6.27
806.096	-6.63
806.272	-7.18
806.448	-7.18
806.623	-5.65
806.799	-4.96
806.975	-5.38
807.151	-3.96
807.327	-4.13
807.503	-3.33
807.678	-4.66
807.854	-4.6
808.03	-4.07
808.206	-3.34
808.381	-3.98
808.557	-2.92
808.733	-4.17
808.908	-3.83
809.084	-5.11
809.26	-3.34
809.435	-3.19
809.611	-1.65
809.787	0.04
809.962	-0.15
810.138	0.39
810.313	0.44
810.489	-0.46
810.664	0.66
810.84	-0.21
811.015	1.25
811.191	1.06
811.366	1.71
811.542	1.46
811.717	0.6
811.892	0.88
812.068	0.48
812.243	0.89
812.419	0.01
812.594	-0.78
812.769	-0.13
812.944	-0.64
813.12	-1.97
813.295	-3.57
813.47	-4
813.645	-3.59
813.821	-4.21
813.996	-5.38
814.171	-5.56
814.346	-4.19
814.521	-2.71
814.697	-1.5
814.872	-2.36
815.047	-2.51
815.222	-1.46
815.397	-0.19
815.572	-0.94
815.747	-1.95
815.922	-1.97
816.097	-1.79
816.272	-2.54
816.447	-3.28
816.622	-4.52
816.797	-2.5
816.972	-2.49
817.147	-4.15
817.322	-5.4
817.496	-5.8
817.671	-4.25
817.846	-3.91
818.021	-1.76
818.196	-1.16
818.371	-1.28
818.545	-1.92
818.72	-2.24
818.895	-1.79
819.069	-1.24
819.244	-1.53
819.419	-0.37
819.594	-1.14
819.768	-0.29
819.943	-1.07
820.117	-1.03
820.292	-0.73
820.467	-0.96
820.641	-1.5
820.816	-1.53
820.99	-1.07
821.165	-0.68
821.339	-1.07
821.514	-0.91
821.688	-1.06
821.863	-1.24
822.037	-1.25
822.212	-1.23
822.386	-1.07
822.56	-0.65
822.735	-0.79
822.909	-0.91
823.084	-0.9
823.258	-0.96
823.432	-0.71
823.606	-0.75
823.781	-0.84
823.955	-0.88
824.129	-0.99
824.303	-0.68
824.478	-1.19
824.652	-0.94
824.826	-0.88
825	-1.32
825.174	-0.97
825.348	-1.38
825.523	-1.7
825.697	-1.43
825.871	-1.39
826.045	-1.65
826.219	-1.95
826.393	-1.73
826.567	-1.63
826.741	-1.34
826.915	-1.22
827.089	-1.26
827.263	-1.38
827.437	-0.82
827.611	-1.05
827.784	-0.71
827.958	-0.15
828.132	-0.18
828.306	-0.18
828.48	-0.51
828.654	-0.53
828.827	-0.75
829.001	0.08
829.175	0.48
829.349	0.11
829.522	0.54
829.696	-0.9
829.87	-1.78
830.044	-1.65
830.217	-1.64
830.391	-1.7
830.565	-2.12
830.738	-0.85
830.912	-3.1
831.085	-2.55
831.259	-2.74
831.432	-3.6
831.606	-2.22
831.779	-0.62
831.953	-0.79
832.126	-0.86
832.3	-0.7
832.473	-0.89
832.647	-1.49
832.82	-1.03
832.994	-1.46
833.167	-1.68
833.34	-1.4
833.514	-1.5
833.687	-2.47
833.86	-2.09
834.034	-1.97
834.207	-2.04
834.38	-2.6
834.553	-2.68
834.727	-2.6
834.9	-2.04
835.073	-1.38
835.246	-1.75
835.419	-2.56
835.593	-2.62
835.766	-2.09
835.939	-1.86
836.112	-1.84
836.285	0.21
836.458	0.66
836.631	0.71
836.804	-0.12
836.977	-0.5
837.15	1.7
837.323	3.21
837.496	3.2
837.669	1.3
837.842	1.09
838.015	-0.09
838.188	-0.98
838.361	-2.06
838.533	-1.93
838.706	-1.3
838.879	-1.6
839.052	-2.02
839.225	-2.77
839.398	-1.36
839.57	-0.23
839.743	-1.09
839.916	0.98
840.088	0.44
840.261	2.13
840.434	2.73
840.607	2.72
840.779	2.6
840.952	0.13
841.124	-0.54
841.297	-2.12
841.47	-1.69
841.642	-3.21
841.815	-2.77
841.987	-5.13
842.16	-8.05
842.332	-9.47
842.505	-8.82
842.677	-6.35
842.85	-5.54
843.022	-5.28
843.194	-5.62
843.367	-4.9
843.539	-3.24
843.712	-4.92
843.884	-2.32
844.056	-0.71
844.229	0.09
844.401	-1.95
844.573	-5.13
844.745	-4.31
844.918	-5.22
845.09	-2.65
845.262	-6.89
845.434	-7.23
845.606	-9.38
845.779	-8.61
845.951	-12.26
846.123	-17.56
846.295	-14.03
846.467	-13.85
846.639	-12.51
846.811	-9.29
846.983	-7.16
847.155	-7.61
847.327	-5.6
847.499	-3.13
847.671	-4.23
847.843	-2.46
848.015	-1.71
848.187	-6.11
848.359	-7.34
848.531	-7.6
848.703	-9.76
848.875	-9.68
849.047	-3.03
849.218	-1.54
849.39	-3.37
849.562	-5.73
849.734	-4.16
849.905	-2.9
850.077	1.55
850.249	2.01
850.421	1.15
850.592	2.17
850.764	1.49
850.936	-5.14
851.107	-8.56
851.279	-9.59
851.451	-5.88
851.622	-8.36
851.794	-0.92
851.965	-3.49
852.137	-1.34
852.308	-2.34
852.48	-1.5
852.651	-3.33
852.823	-1.32
852.994	-1.63
853.166	0.64
853.337	1.46
853.509	2.72
853.68	-1.21
853.851	-2.18
854.023	-5.34
854.194	-7.74
854.365	-4.62
854.537	-6.74
854.708	-5.78
854.879	-4.51
855.05	-4.23
855.222	-8.48
855.393	-8.03
855.564	-10.04
855.735	-5.49
855.906	-5.01
856.078	-4.52
856.249	-7.74
856.42	-11.16
856.591	-12.67
856.762	-14.82
856.933	-16.64
857.104	-12.01
857.275	-13.31
857.446	-10.73
857.617	-10.94
857.788	-9.52
857.959	-8.35
858.13	-8.75
858.301	-9
858.472	-7.75
858.643	-6.02
858.814	-5.32
858.985	-6.75
859.155	-6.09
859.326	-1.78
859.497	-3.95
859.668	-0.47
859.839	4.6
860.009	3.07
860.18	9.09
860.351	7.74
860.522	3.92
860.692	1.55
860.863	0.26
861.034	2.92
861.204	-2.47
861.375	-3.98
861.546	-8.96
861.716	-10.08
861.887	-10.75
862.057	-13.61
862.228	-15.56
862.398	-11.55
862.569	-8.29
862.739	-5.46
862.91	-12.55
863.08	-11.06
863.251	-4.85
863.421	-7.63
863.592	-7.25
863.762	-13.95
863.932	-11.87
864.103	-2.57
864.273	-4.22
864.443	-3.17
864.614	-3.38
864.784	1.05
864.954	-0.07
865.125	-0.68
865.295	7.05
865.465	9.24
865.635	14.78
865.805	20
865.976	11.91
866.146	13.3
866.316	10.86
866.486	8.16
866.656	5
866.826	7.36
866.996	5.14
867.166	1.15
867.336	-2.53
867.506	1.59
867.676	-1.57
867.846	1.34
868.016	1.25
868.186	1.5
868.356	0.12
868.526	4.8
868.696	-0.4
868.866	-0.63
869.036	1.39
869.206	-1.3
869.376	-4.99
869.545	-6.7
869.715	-2.67
869.885	-2.41
870.055	-3.02
870.224	-2.15
870.394	-4.11
870.564	1.77
870.734	1.42
870.903	4.67
871.073	5.35
871.243	3.39
871.412	0.99
871.582	1.71
871.751	2.6
871.921	9.38
872.091	7.27
872.26	10.85
872.43	10.68
872.599	9.92
872.769	4.65
872.938	7.36
873.108	10.7
873.277	9.71
873.446	4.35
873.616	0.23
873.785	-7.66
873.955	-3.49
874.124	-7.6
874.293	-4.94
874.463	-3.03
874.632	-0.78
874.801	-0.96
874.971	-0.3
875.14	2.05
875.309	0.34
875.478	5.36
875.647	8.94
875.817	13.08
875.986	14.28
876.155	9.36
876.324	7.46
876.493	7.66
876.662	4.67
876.831	5.1
877	8.94
877.17	7.41
877.339	3.88
877.508	5.4
877.677	2.72
877.846	4.68
878.015	5.31
878.184	4.91
878.352	6.26
878.521	8.23
878.69	6.66
878.859	2.95
879.028	5.42
879.197	5.11
879.366	2.81
879.534	1.54
879.703	-0.16
879.872	0.35
880.041	0.11
880.21	-1.51
880.378	-0.33
880.547	-1.37
880.716	-0.57
880.884	0.04
881.053	0.16
881.222	0.23
881.39	0.09
881.559	0.48
881.727	0.46
881.896	-0.21
882.065	-0.67
882.233	-1.87
882.402	-1.81
882.57	-2.13
882.739	-2.26
882.907	-2.06
883.076	-2.24
883.244	-2.74
883.412	-3.66
883.581	-4.81
883.749	-4.53
883.918	-4.13
884.086	-3.86
884.254	-3.45
884.423	-3.45
884.591	-4.12
884.759	-3.67
884.927	-3.47
885.096	-3.96
885.264	-3.86
885.432	-2.54
885.6	-2.44
885.769	-2.11
885.937	-1.14
886.105	-2.67
886.273	-1.36
886.441	-1.45
886.609	-1.23
886.777	-1.25
886.945	-0.91
887.113	1.68
887.281	1.73
887.449	-0.78
887.617	-1.14
887.785	1.64
887.953	5.58
888.121	3.86
888.289	3.13
888.457	3.93
888.625	3.26
888.793	6.81
888.961	5.78
889.129	4.86
889.296	12.53
889.464	13.01
889.632	9.19
889.8	8.39
889.967	8.61
890.135	13.5
